File: sample_4.1_postann_550_PLD/HZO_XRD.dat
Baseline_X Subtracted_Data
27 0
27.02 -9.88613
27.04 11.2277
27.06 23.3416
27.08 -0.544532
27.1 -9.43066
27.12 17.6832
27.14 7.79707
27.16 4.91094
27.18 -14.9752
27.2 27.1387
27.22 3.25254
27.24 4.3664
27.26 35.4803
27.28 18.5941
27.3 25.708
27.32 14.8219
27.34 10.9357
27.36 36.0496
27.38 8.16347
27.4 17.2773
27.42 17.3912
27.44 36.5051
27.46 41.6189
27.48 32.7328
27.5 35.8467
27.52 39.9605
27.54 38.0744
27.56 34.1883
27.58 38.3021
27.6 47.416
27.62 28.5299
27.64 70.6437
27.66 65.7576
27.68 54.8715
27.7 47.9853
27.72 61.0992
27.74 63.2131
27.76 70.3269
27.78 94.4408
27.8 84.5547
27.82 77.6685
27.84 79.7824
27.86 92.8963
27.88 102.01
27.9 95.124
27.92 106.238
27.94 113.352
27.96 161.466
27.98 131.579
28 131.193
28.02 137.807
28.04 120.921
28.05 170.978
28.06 123.035
28.08 138.149
28.1 174.263
28.12 172.377
28.14 176.49
28.16 151.604
28.18 192.718
28.2 182.832
28.22 199.946
28.24 196.06
28.26 191.174
28.28 190.287
28.3 196.401
28.32 235.515
28.34 212.629
28.36 254.743
28.38 212.857
28.4 226.971
28.42 241.085
28.44 219.198
28.46 217.312
28.48 232.426
28.5 255.54
28.52 219.654
28.54 232.768
28.56 222.882
28.58 243.995
28.6 230.109
28.62 247.223
28.64 206.337
28.66 214.451
28.68 227.565
28.7 214.679
28.72 239.793
28.74 207.906
28.76 240.02
28.78 215.134
28.8 279.248
28.82 220.362
28.84 216.476
28.86 222.59
28.88 203.704
28.9 127.817
28.92 223.931
28.94 191.045
28.96 160.159
28.98 180.273
29 236.387
29.02 173.501
29.04 186.614
29.06 187.728
29.08 184.842
29.1 204.956
29.12 191.07
29.14 181.184
29.16 180.298
29.18 180.412
29.2 154.525
29.22 206.639
29.24 190.753
29.26 178.867
29.28 251.981
29.3 199.095
29.32 220.209
29.34 191.322
29.36 264.436
29.38 210.55
29.4 198.664
29.42 210.778
29.44 232.892
29.46 275.006
29.48 214.12
29.5 247.233
29.52 253.347
29.54 192.461
29.56 254.575
29.58 251.689
29.6 276.803
29.62 269.917
29.64 318.03
29.66 316.144
29.68 372.258
29.7 325.372
29.72 342.486
29.74 420.6
29.76 436.714
29.78 438.828
29.8 449.941
29.82 464.055
29.84 505.169
29.86 565.283
29.88 592.397
29.9 614.511
29.92 675.625
29.94 719.738
29.96 748.852
29.98 765.966
30 850.08
30.02 892.194
30.04 909.808
30.05 1037.36
30.06 945.422
30.08 1021.54
30.1 1094.65
30.12 1171.76
30.14 1237.88
30.16 1276.99
30.18 1246.1
30.2 1362.22
30.22 1465.33
30.24 1545.45
30.26 1541.56
30.28 1623.67
30.3 1668.79
30.32 1668.9
30.34 1718.02
30.36 1838.13
30.38 1890.24
30.4 1847.36
30.42 1850.47
30.44 1971.59
30.46 1940.7
30.48 1978.81
30.5 1965.93
30.52 1954.04
30.54 1987.15
30.56 1971.27
30.58 1996.38
30.6 1935.5
30.62 1976.61
30.64 1882.72
30.66 1928.84
30.68 1817.95
30.7 1901.07
30.72 1720.18
30.74 1813.29
30.76 1743.41
30.78 1694.52
30.8 1608.63
30.82 1643.75
30.84 1508.86
30.86 1501.98
30.88 1513.09
30.9 1422.7
30.92 1369.82
30.94 1345.43
30.96 1277.05
30.98 1245.16
31 1204.77
31.02 1213.89
31.04 1083
31.06 1095.12
31.08 1033.23
31.1 998.343
31.12 973.457
31.14 964.57
31.16 897.684
31.18 776.798
31.2 840.912
31.22 820.026
31.24 792.14
31.26 737.254
31.28 796.368
31.3 731.481
31.32 728.595
31.34 701.709
31.36 683.823
31.38 647.937
31.4 667.051
31.42 574.165
31.44 619.278
31.46 586.392
31.48 536.506
31.5 574.62
31.52 580.734
31.54 537.848
31.56 553.962
31.58 554.076
31.6 499.189
31.62 526.303
31.64 486.417
31.66 459.531
31.68 484.645
31.7 472.759
31.72 429.873
31.74 400.986
31.76 392.1
31.78 379.214
31.8 373.328
31.82 400.442
31.84 361.556
31.86 333.67
31.88 379.784
31.9 341.897
31.92 318.011
31.94 271.125
31.96 290.739
31.98 277.853
32 246.967
32.02 253.581
32.04 241.695
32.06 234.808
32.08 213.922
32.1 219.036
32.12 221.15
32.14 171.264
32.16 185.378
32.18 174.492
32.2 123.605
32.22 162.719
32.24 112.833
32.26 163.947
32.28 161.061
32.3 115.175
32.32 143.289
32.34 108.403
32.36 92.5164
32.38 93.6302
32.4 102.744
32.42 71.858
32.44 51.9718
32.46 81.0857
32.48 80.1996
32.5 63.3134
32.52 46.4273
32.54 47.5412
32.56 48.655
32.58 32.7689
32.6 69.8828
32.62 18.9966
32.64 24.1105
32.66 83.2244
32.68 -12.6618
32.7 31.4521
32.72 -17.434
32.74 17.6798
32.76 15.7937
32.78 10.9076
32.8 21.0215
32.82 44.1353
32.84 48.2492
32.86 43.3631
32.88 31.4769
32.9 20.0908
32.92 17.2047
32.94 -3.18148
32.96 22.4324
32.98 -0.953746
33 -1.83988
33.02 -4.83988
33.04 -26.8399
33.06 3.16012
33.08 -11.8399
33.1 14.1601
33.12 28.1601
33.14 7.16012
33.16 -2.83988
33.18 12.1601
33.2 -0.839879
33.22 -13.8399
33.24 -7.83988
33.26 -5.83988
33.28 9.16012
33.3 3.16012
33.32 -28.8399
33.34 39.1601
33.36 12.1601
33.38 11.1601
33.4 -41.8399
33.42 -9.83988
33.44 6.16012
33.46 11.1601
33.48 1.16012
33.5 -15.8399
33.52 13.1601
33.54 -30.8399
33.56 15.1601
33.58 22.1708
33.6 0.423253
33.62 -8.32433
33.64 -9.07192
33.66 0.180489
33.68 13.4329
33.7 36.6853
33.72 6.93773
33.74 -3.80986
33.76 -9.55745
33.78 12.695
33.8 12.9474
33.82 15.1998
33.84 12.4522
33.86 5.70461
33.88 11.957
33.9 -2.29057
33.92 22.4618
33.94 1.21426
33.96 34.4667
33.98 47.2191
34 27.4715
34.02 45.7239
34.04 31.9763
34.06 34.2287
34.08 46.4811
34.1 4.73355
34.12 62.986
34.14 75.2384
34.16 39.4908
34.18 76.7432
34.2 56.9956
34.22 50.248
34.24 50.5004
34.26 91.7529
34.28 74.0053
34.3 100.258
34.32 89.5101
34.34 134.762
34.36 84.0149
34.38 110.267
34.4 109.52
34.42 87.7721
34.44 115.025
34.46 147.277
34.48 116.529
34.5 146.782
34.52 163.034
34.54 117.287
34.56 138.539
34.58 131.791
34.6 203.044
34.62 138.296
34.64 173.549
34.66 144.801
34.68 166.054
34.7 188.306
34.72 215.558
34.74 211.811
34.76 193.063
34.78 218.316
34.8 238.568
34.82 228.82
34.84 220.073
34.86 267.325
34.88 240.578
34.9 226.83
34.92 226.082
34.94 225.335
34.96 236.587
34.98 276.84
35 223.092
35.02 292.345
35.04 334.597
35.06 314.849
35.08 310.102
35.1 333.354
35.12 309.607
35.14 301.859
35.16 290.111
35.18 317.364
35.2 321.616
35.22 369.869
35.24 300.121
35.26 317.373
35.28 355.626
35.3 341.878
35.32 298.131
35.34 299.383
35.36 322.636
35.38 375.888
35.4 357.14
35.42 319.393
35.44 298.645
35.46 307.898
35.48 299.15
35.5 316.402
35.52 311.655
35.54 329.907
35.56 322.16
35.58 277.412
35.6 276.664
35.62 309.917
35.64 299.169
35.66 247.422
35.68 268.674
35.7 208.927
35.72 244.179
35.74 213.431
35.76 280.684
35.78 224.936
35.8 210.189
35.82 211.441
35.84 135.693
35.86 183.946
35.88 174.198
35.9 158.951
35.92 163.203
35.94 130.955
35.96 115.208
35.98 141.96
36 109.213
36.02 128.965
36.04 99.2175
36.06 122.47
36.08 99.7223
36.1 88.9748
36.12 92.2272
36.14 93.4796
36.16 64.732
36.18 86.9844
36.2 98.2368
36.22 81.4892
36.24 107.742
36.26 131.994
36.28 110.246
36.3 46.4989
36.32 124.751
36.34 116.004
36.36 112.256
36.38 147.509
36.4 153.761
36.42 153.013
36.44 262.266
36.46 180.518
36.48 218.771
36.5 243.023
36.52 251.275
36.54 256.528
36.56 293.78
36.58 346.033
36.6 367.285
36.62 394.537
36.64 405.79
36.66 438.042
36.68 432.295
36.7 542.547
36.72 512.8
36.74 556.052
36.76 577.304
36.78 538.557
36.8 603.809
36.82 587.062
36.84 658.314
36.86 606.566
36.88 629.819
36.9 645.071
36.92 638.324
36.94 622.576
36.96 672.828
36.98 655.081
37 676.333
37.02 581.586
37.04 643.838
37.06 567.091
37.08 514.343
37.1 644.595
37.12 560.848
37.14 525.1
37.16 546.353
37.18 496.605
37.2 484.857
37.22 465.11
37.24 401.362
37.26 428.615
37.28 375.867
37.3 373.119
37.32 317.372
37.34 323.624
37.36 283.877
37.38 278.129
37.4 206.382
37.42 236.634
37.44 178.886
37.46 171.139
37.48 161.391
37.5 85.6436
37.52 138.896
37.54 108.148
37.56 87.4008
37.58 104.653
37.6 84.9057
37.62 54.1581
37.64 37.4105
37.66 38.6629
37.68 8.91531
37.7 42.1677
37.72 17.4201
37.74 27.6725
37.76 26.925
37.78 36.1774
37.8 34.4298
37.82 -11.3178
37.84 6.93461
37.86 -22.813
37.88 -11.5606
37.9 -3.95749
37.92 -16.1191
37.94 -0.280751
37.96 -11.4424
37.98 4.39599
38 -15.7656
38.02 14.0727
38.04 0.911092
38.06 -3.25054
38.08 19.5878
38.1 -17.5738
38.12 -30.7354
38.14 -16.8971
38.16 11.9413
38.18 -3.22033
38.2 -1.38196
38.22 -27.5436
38.24 -8.70522
38.26 -25.8669
38.28 -36.0285
38.3 3.80988
38.32 -1.35175
38.34 -27.5134
38.36 -28.675
38.38 -15.8366
38.4 4.00173
38.42 -11.1599
38.44 -14.3215
38.46 -24.4832
38.48 -20.6448
38.5 -28.8064
38.52 -18.9681
38.54 -17.181
38.56 -20.6513
38.58 -26.1217
38.6 -34.5921
38.62 -12.0625
38.64 -4.53292
38.66 -10.0033
38.68 -3.47371
38.7 1.0559
38.72 -21.4145
38.74 -16.8849
38.76 -5.35528
38.78 4.17433
38.8 -3.29607
38.82 -7.76646
38.84 6.76315
38.86 7.29275
38.88 -6.17764
38.9 -27.648
38.92 1.88157
38.94 -0.58882
38.96 -4.05921
38.98 -0.529607
39 0